Folder: py_figures/py_figures/XRD_data

Note: README.md
# py_figures
Python code for generating XRD, PDF, EIS, and CP figures.

Author: Sinclair R. Combs

Examples shown in Jupyter notebooks -- see examples folder.

-----------------------------------------------------------

For installation, I recommend cloning this repo and running the setup.py file locally. 

On Windows OS in CLI: 
- Navigate to directory where you want to store the repo clone
- Enter "git clone https://github.com/Maughan-Lab/py_figures"
- Enter "cd py_figures" to navigate into the new directory
- Enter "python setup.py install" to install the package

-----------------------------------------------------------

File name conventions for echem data:

Experimental data file: filename_cycleN.txt

Fit: filename_cycleN_fit.txt

Fit parameters: filename_cycleN_params.txt

File: 11bmb_8032SRC001-020.xye
/*
# 11bmb_8032.fxye Bank 1
*/
0.5 879.262 42.4805
0.665741 760.354 39.7362
0.831481 591.39 34.8136
0.997222 478.065 31.1773
1.162962 375.455 27.9022
1.328703 355.39 26.9965
1.494444 287.783 24.1568
1.660184 278.375 24.06717
1.825925 271.057 23.6607
1.991666 262.979 22.9745
2.157406 249.759 20.7936
2.323147 226.002 19.7466
2.488888 216.512 19.071
2.654628 229.989 19.984
2.820369 221.926 19.4782
2.986109 206.89 18.63633
3.15185 207.189 18.8972
3.317591 212.358 19.0422
3.483331 244.43 20.3271
3.649072 221.981 19.34368
3.814813 261.414 21.1025
3.980553 241.674 20.194
4.146294 266.219 18.9873
4.312034 343.919 21.8976
4.477775 317.347 20.8223
4.643516 317.175 20.7365
4.809256 959.934 36.5468
4.974997 1418.23 44.1592
5.140738 603.397 28.5879
5.306478 574.2687 28.394
5.472219 637.684 29.5547
5.637959 609.407 28.69249
5.8037 530.222 27.0545
5.969441 508.067 26.4077
6.135181 533.539 24.8126
6.300922 565.029 25.74872
6.466663 884.361 32.1214
6.632403 505.103 24.0866
6.798144 466.657 23.1276
6.963884 447.357 22.78434
7.129625 394.219 21.2376
7.295366 377.374 20.6916
7.461106 408.475 21.8374
7.626847 352.654 20.1185
7.792588 363.229 20.3319
7.958328 325.452 19.533
8.124069 316.019 17.985
8.289809 334.479 18.4464
8.45555 452.585 21.84274
8.621291 413.349 20.8131
8.787031 3668.63 60.8528
8.952772 333.064 18.5666
9.118513 283.723 17.0581
9.284253 268.057 16.5452
9.449994 277.496 16.9342
9.615734 296.279 17.5813
9.781475 296.99 17.303
9.947216 583.682 24.5512
10.113 15444.9 118.042
10.2787 774.119 26.3043
10.4444 330.381 16.9634
10.6102 353.059 17.9775
10.7759 219.955 13.9717
10.9417 221.795 13.8325
11.1074 285.151 16.06406
11.2731 227.551 14.2718
11.4389 233.6066 14.3753
11.6046 218.334 13.9808
11.7704 203.511 13.5203
11.9361 210.986 13.4348
12.1018 215.743 13.2805
12.2676 225.441 13.4781
12.4333 207.193 12.8199
12.5991 337.664 16.5384
12.7648 307.35 15.7318
12.9305 430.866 18.5304
13.0963 419.48 18.2712
13.262 342.61 16.73863
13.4278 264.58 14.4706
13.5935 250.544 14.106
13.75925 289.539 15.3272
13.925 353.328 16.8354
14.0907 344.424 15.64488
14.2565 1492.74 33.2592
14.4222 814.378 24.2804
14.588 352.165 15.86355
14.7537 267.253 14.0146
14.9194 394.973 16.9635
15.0852 267.516 13.8244
15.2509 244.63 13.4202
15.4167 244.669 13.3474
15.5824 215.055 12.446
15.7481 187.718 11.6865
15.9139 209.027 12.299
16.0796 233.672 12.3956
16.2454 233.751 12.3683
16.4111 231.715 12.5022
16.5768 319.226 14.47
16.7426 1249.73 28.65453
16.9083 551.774 19.2513
17.0741 341.61 15.1016
17.2398 440.41 17.0182
17.4055 367.852 15.8461
17.5713 1843.06 34.9642
17.737 444.266 17.0633
17.9028 269.468 13.56516
18.0685 289.797 13.8456
18.2342 274.416 13.4694
18.4 211.905 11.8207
18.5657 238.074 12.6552
18.7315 234.056 12.3638
18.8972 201.264 11.572
19.06295 205.5 11.6891
19.2287 251.533 12.8702
19.3944 237.55 12.4758
19.5602 231.652 12.4702
19.7259 223.435 12.1772
19.8917 221.98 12.04793
20.0574 249.365 12.9498
20.2231 453.149 17.3804
20.3889 559.147 19.0978
20.5546 299.924 14.2125
20.7204 234.336 12.5507
20.8861 248.9 12.7348
21.0518 233.637 12.5873
21.2176 242.179 12.6783
21.3833 233.867 12.4055
21.5491 233.126 12.4645
21.7148 267.7226 13.3985
21.8805 268.829 13.2443
22.0463 538.025 18.9836
22.212 445.395 17.3503
22.3778 372.67 15.7166
22.5435 351.306 15.2283
22.7092 1400.34 30.7967
22.875 438.15 17.083
23.0407 364.655 15.3675
23.2065 339.297 15.158
23.3722 230.657 12.3411
23.5379 253.475 12.876
23.7037 249.403 12.9077
23.8694 234.611 12.5267
24.0352 259.75 12.9703
24.2009 256.515 13.2002
24.36665 244.883 12.7746
24.5324 239.083 12.5838
24.6981 254.998 13.0785
24.8639 833.114 23.621
25.0296 436.931 17.0255
25.1954 309.038 14.3154
25.3611 269.43 13.4879
25.5268 235.228 12.4331
25.6926 253.75 12.9447
25.8583 248.874 12.8924
26.0241 229.308 12.3551
26.1898 223.143 12.0112
26.3555 352.16 15.4435
26.5213 436.961 17.0105
26.687 224.935 12.185
26.8528 233.516 12.5708
27.0185 214.969 11.9299
27.1842 217.312 11.95246
27.35 260.33 13.2724
27.5157 185.683 11.09986
27.6815 194.621 11.2847
27.8472 192.402 11.3562
28.0129 187.109 11.6461
28.1787 187.114 11.5881
28.3444 191.229 11.6912
28.5102 177.391 11.355
28.6759 211.659 12.3192
28.8416 364.442 16.11993
29.0074 207.919 12.3364
29.1731 233.539 13.0074
29.3389 232.216 12.92757
29.5046 183.45 11.5882
29.67035 210.052 12.3041
29.8361 206.988 12.1343
30.0018 182.769 12.1495
30.1676 289.133 15.1403
30.3333 227.823 13.3226
30.4991 247.814 14.0761
30.6648 530.431 20.62423
30.8305 234.732 13.6759
30.9963 224.55 13.3671
31.162 222 13.2804
31.3278 192.38 12.3806
31.4935 186.479 12.165
31.6592 186.725 12.3253
31.825 246.414 13.9906
31.9907 181.849 11.85691
32.1565 203.478 13.4742
32.3222 280.247 15.6875
32.4879 258.223 14.9842
32.6537 218.777 13.9756
32.8194 206.23 13.5123
32.9852 197.09 12.9648
33.1509 220.519 14.0918
33.3166 179.033 12.5235
33.4824 238.042 14.4075
33.6481 233.095 14.3908
33.8139 216.463 13.8934
33.9796 312.393 16.504
34.1453 242.458 15.38627
34.3111 228.511 14.9727
34.4768 226.722 14.9089
34.6426 195.138 13.7061
34.8083 193.05 13.766
34.97405 206.923 14.1554
35.1398 232.895 15.0092
35.3055 194.877 13.889
35.4713 209.442 14.322
35.637 208.391 14.11264
35.8028 202.096 14.1447
35.9685 217.379 14.6297
36.1342 179.731 13.7932
36.3 202.776 14.9676
36.4657 185.021 14.15924
36.6315 222.102 15.55031
36.7972 197.939 14.6941
36.9629 224.943 15.6256
37.1287 224.837 15.5776
37.2944 210.051 15.1491
37.4602 193.017 14.5776
37.6259 176.889 13.7511
37.7916 165.073 13.2412
37.9574 175.412 13.7685
38.1231 172.356 14.7313
38.2889 207.263 16.296
38.4546 261.372 18.5114
38.6203 217.439 16.6719
38.7861 197.878 15.8386
38.9518 181.277 15.4834
39.1176 173.357 14.81597
39.2833 179.921 15.1421
39.449 186.904 15.6782
39.6148 172.502 14.8812
39.7805 189.276 15.5794
39.9463 182.449 15.4101
40.112 201.859 17.81832
40.27775 177.068 16.6736
40.4435 145.179 15.1139
40.6092 172.833 16.5797
40.775 169.356 16.15322
40.9407 152.804 15.47546
41.1065 141.36 14.9545
41.2722 172.145 16.4335
41.4379 170.186 16.1119
41.6037 176.783 16.669
41.7694 149.131 15.22414
41.9352 139.5 14.5788
42.1009 176.166 18.2199
42.2666 184.903 18.729
42.4324 186.747 18.676
42.5981 189.268 18.9964
42.7639 167.601 17.8336
42.9296 186.677 18.55055
43.0953 132.263 15.7695
43.2611 124.545 15.23381
43.4268 132.949 15.7562
43.5926 148.162 16.6004
43.7583 142.331 16.4121
43.924 161.8342 17.4285
44.0898 175.303 21.35606
44.2555 155.383 20.2908
44.4213 144.219 19.363
44.587 157.62 20.14
44.7527 174.139 21.5153
44.9185 187.271 22.0902
45.0842 177.324 21.29382
45.25 179.633 21.8466
45.4157 154.307 20.0752
45.58145 143.763 19.3133
45.7472 153.202 20.04357
45.9129 164.544 20.7681
46.0787 167.236 25.49475
46.2444 151.75 24.0894
46.4102 159.668 24.9233
46.5759 147.306 23.7063
46.7416 119.2 21.38073
46.9074 145.77 23.8465
47.0731 151.345 24.1117
47.2389 119.834 21.3158
47.4046 150.662 24.4036
47.5703 152.177 24.2123
47.7361 163.026 24.7868
47.9018 128.163 22.4448
48.0676 118.417 30.4685
48.2333 152.681 34.2655
48.399 128.837 32.2092
48.5648 108.605 28.8684
48.7305 150.904 34.43551
48.8963 129.842 32.2454
49.062 134.053 32.392
49.2277 123.201 31.0854
49.3935 80.2987 25.3824
49.5592 124.371 31.5604
49.725 98.1261 27.4097
49.8907 181.301 38.0233
49.9945 140.634 33.3867